\STAR_ID                            = "2MASS J10200265+4158553"
\DATA_CATEGORY                      = "Planet Radial Velocity Curve"
\NUMBER_OF_POINTS                   = "33"
\TIME_REFERENCE_FRAME               = "FCJD"
\MINIMUM_DATE                       = "2454811.970694"
\DATE_UNITS                         = "days"
\MAXIMUM_DATE                       = "2455553.941806"
\MINIMUM_VALUE                      = "-9256.965"
\VALUE_UNITS                        = "m/s"
\MAXIMUM_VALUE                      = "2125.935"
\REFERENCE                          = "Thomas et al. 2016 (PASP, 128, 5003)"
\BIBCODE                            = "2016PASP..128d5003T"
\TELESCOPE                          = "2.5m Sloan Foundation Telescope"
\INSTRUMENT                         = "MARVELS"
\WAVELENGTH_CALIBRATION_TECHNIQUE   = "Tungsten Iodine Lamp"
\OBSERVATORY_SITE                   = "Apache Point Observatory, New Mexico"
\COLUMN_FCJD                        = "Flux Centered Julian Date of observation"
\COLUMN_RADIAL_VELOCITY             = "Radial velocity relative to barycenter"
\COLUMN_RADIAL_VELOCITY_UNCERTAINTY = "Uncertainty in RADIAL_VELOCITY"
|           FCJD |   Radial_Velocity |   Radial_Velocity_Uncertainty |
|         double |            double |                        double |
|           days |               m/s |                           m/s |
  2454811.970694            -652.591                         124.446
  2454813.035370            -763.487                         133.013
  2454847.010046            -333.058                         178.368
  2454867.904722             408.705                         123.569
  2454868.926991             276.169                          82.429
  2454869.918102             152.222                         127.121
  2454877.968600             464.046                         227.995
  2454894.762975             769.962                         178.156
  2454898.914259            1007.195                         135.576
  2454901.860370             490.076                         233.750
  2454902.854456             924.314                         104.718
  2454905.868576             856.037                         115.289
  2454906.833912            1022.900                          95.879
  2454907.872188             879.188                            -NaN
  2454928.801412            1338.457                         125.805
  2454929.805336             214.319                         128.196
  2454931.766991            1309.561                         138.602
  2454934.814757            1581.037                         120.941
  2454935.806400            1399.102                         147.834
  2454954.746203            1162.999                         157.617
  2454955.726400            1591.932                          90.842
  2454956.731690                -NaN                            -NaN
  2454958.681551            1550.229                         109.502
  2454959.690231            1596.032                         105.221
  2454960.685961            1630.494                         114.475
  2454963.680347            1773.147                         126.550
  2454983.656065            2125.935                         231.849
  2454985.643009            1639.670                         132.657
  2454986.704387            1523.118                         172.824
  2454987.687315            1743.096                         189.274
  2455551.951551           -9242.368                         138.644
  2455552.931412           -9181.471                          93.320
  2455553.941806           -9256.965                         129.545
